Folder: 361/XRD Lab

Note: README.md
[![Binder](https://mybinder.org/badge_logo.svg)](https://mybinder.org/v2/gh/CSSFrancis/361/main)
# 361 Class Labs in Python

This repository hold the Jupyter Notebooks for proforming the homeworks for 361.  I have included these as instrucututions and to help familiarize
students with python

File: Au calibrated.txt
Index	X	Acquisition
0	-3.10956	0
14	-2.69509	0
28	-2.28062	2
42	-1.86614	1
56	-1.45167	1
70	-1.0372	1
84	-0.622727	1
98	-0.208255	2
112	0.206218	1
126	0.620691	1
140	1.03517	8
154	1.44965	4
168	1.86414	4
182	2.27865	12
196	2.69317	10
210	3.1077	589
224	3.52225	652
238	3.93682	768
252	4.35142	757
266	4.76604	789
280	5.1807	752
294	5.59538	820
308	6.0101	786
322	6.42485	834
336	6.83964	856
350	7.25447	830
364	7.66935	818
378	8.08427	801
392	8.49924	871
406	8.91426	833
420	9.32934	768
434	9.74447	855
448	10.1597	755
462	10.5749	808
476	10.9902	805
490	11.4056	780
504	11.8211	796
518	12.2366	781
532	12.6522	811
546	13.0678	802
560	13.4836	815
574	13.8994	782
588	14.3153	770
602	14.7313	771
616	15.1474	778
630	15.5636	679
644	15.9799	756
658	16.3962	656
672	16.8127	735
686	17.2293	748
700	17.6459	646
714	18.0627	666
728	18.4796	684
742	18.8966	733
756	19.3137	677
770	19.7309	670
784	20.1483	651
798	20.5657	622
812	20.9833	625
826	21.401	561
840	21.8189	613
854	22.2368	612
868	22.6549	609
882	23.0732	592
896	23.4916	560
910	23.9101	569
924	24.3288	567
938	24.7476	580
952	25.1665	545
966	25.5856	542
980	26.0049	516
994	26.4243	473
1008	26.8439	496
1022	27.2636	526
1036	27.6835	500
1050	28.1036	483
1064	28.5238	557
1078	28.9442	473
1092	29.3648	470
1106	29.7855	458
1120	30.2064	457
1134	30.6274	437
1148	31.0485	448
1162	31.4698	471
1176	31.8911	435
1190	32.3126	448
1204	32.7342	434
1218	33.1559	440
1232	33.5777	430
1246	33.9995	460
1260	34.4215	481
1274	34.8435	509
1288	35.2655	462
1302	35.6877	461
1316	36.1098	474
1330	36.532	520
1344	36.9542	499
1358	37.3765	634
1372	37.7987	1199
1386	38.221	9447
1400	38.6433	28302
1414	39.0655	2134
1428	39.4878	970
1442	39.91	733
1456	40.3322	597
1470	40.7544	565
1484	41.1765	474
1498	41.5986	506
1512	42.0206	503
1526	42.4426	473
1540	42.8645	528
1554	43.2863	600
1568	43.708	784
1582	44.1296	2564
1596	44.5511	11386
1610	44.9725	5416
1624	45.3938	1116
1638	45.815	620
1652	46.2361	515
1666	46.657	413
1680	47.0777	382
1694	47.4984	281
1708	47.9188	286
1722	48.3391	332
1736	48.7593	294
1750	49.1794	247
1764	49.5994	242
1778	50.0192	255
1792	50.439	234
1806	50.8587	223
1820	51.2783	234
1834	51.6979	235
1848	52.1174	211
1862	52.5369	231
1876	52.9563	205
1890	53.3758	250
1904	53.7952	197
1918	54.2146	200
1932	54.6341	214
1946	55.0535	201
1960	55.473	202
1974	55.8926	174
1988	56.3122	230
2002	56.7318	187
2016	57.1515	212
2030	57.5713	232
2044	57.9912	208
2058	58.4111	195
2072	58.8311	200
2086	59.2511	205
2100	59.6713	212
2114	60.0915	218
2128	60.5118	214
2142	60.9322	232
2156	61.3526	245
2170	61.7732	228
2184	62.1938	251
2198	62.6145	287
2212	63.0354	306
2226	63.4563	453
2240	63.8773	909
2254	64.2984	4005
2268	64.7196	6828
2282	65.1409	2211
2296	65.5624	717
2310	65.9839	430
2324	66.4055	420
2338	66.8273	338
2352	67.2492	291
2366	67.6712	264
2380	68.0933	259
2394	68.5155	230
2408	68.9378	210
2422	69.3603	234
2436	69.7829	236
2450	70.2056	219
2464	70.6284	228
2478	71.0512	230
2492	71.4741	222
2506	71.8971	241
2520	72.3201	261
2534	72.743	294
2548	73.166	224
2562	73.5889	270
2576	74.0118	255
2590	74.4346	265
2604	74.8574	266
2618	75.2801	305
2632	75.7026	360
2646	76.1251	462
2660	76.5473	815
2674	76.9695	2318
2688	77.3915	6842
2702	77.8134	5593
2716	78.2352	1810
2730	78.6568	744
2744	79.0784	454
2758	79.4998	405
2772	79.9212	400
2786	80.3425	364
2800	80.7637	510
2814	81.1848	1120
2828	81.6059	2295
2842	82.027	1634
2856	82.448	541
2870	82.869	336
2884	83.2899	250
2898	83.7109	243
2912	84.1318	227
2926	84.5528	237
2940	84.9737	206
2954	85.3947	214
2968	85.8157	216
2982	86.2367	188
2996	86.6578	197
3010	87.0789	178
3024	87.5001	170
3038	87.9214	166
3052	88.3427	182
3066	88.7641	183
3080	89.1856	171
3094	89.6071	162
3108	90.0287	164
3122	90.4503	173
3136	90.8719	195
3150	91.2936	152
3164	91.7152	163
3178	92.1368	162
3192	92.5585	172
3206	92.9801	167
3220	93.4016	165
3234	93.8232	165
3248	94.2446	177
3262	94.666	160
3276	95.0874	174
3290	95.5086	187
3304	95.9298	178
3318	96.3509	220
3332	96.772	289
3346	97.193	441
3360	97.614	729
3374	98.035	843
3388	98.456	558
3402	98.8769	353
3416	99.2979	260
3430	99.7189	203
3444	100.14	248
3458	100.561	170
3472	100.982	210
3486	101.403	179
3500	101.824	174
3514	102.245	210
3528	102.667	187
3542	103.088	192
3556	103.509	215
3570	103.931	191
3584	104.353	202
3598	104.774	199
3612	105.196	224
3626	105.618	234
3640	106.04	220
3654	106.463	277
3668	106.885	250
3682	107.308	258
3696	107.73	272
3710	108.153	291
3724	108.576	341
3738	108.999	409
3752	109.423	601
3766	109.846	1189
3780	110.269	2530
3794	110.693	2847
3808	111.116	1773
3822	111.54	932
3836	111.964	607
3850	112.388	520
3864	112.811	501
3878	113.235	607
3892	113.659	940
3906	114.083	2682
3920	114.505	2194
3934	114.928	9
3948	115.35	2
3962	115.773	1
3976	116.195	0
3990	116.618	0
4004	117.04	0
4018	117.462	0
4032	117.885	0
4046	118.307	1
4060	118.73	0
4074	119.152	1
4088	119.575	5
4095	119.786	380

File: W calibrated.txt
Index	X	Acquisition
0	-3.10956	0
14	-2.69509	0
28	-2.28062	0
42	-1.86614	0
56	-1.45167	3
70	-1.0372	0
84	-0.622727	2
98	-0.208255	0
112	0.206218	5
126	0.620691	2
140	1.03517	3
154	1.44965	3
168	1.86414	7
182	2.27865	7
196	2.69317	11
210	3.1077	569
224	3.52225	600
238	3.93682	739
252	4.35142	738
266	4.76604	728
280	5.1807	783
294	5.59538	791
308	6.0101	798
322	6.42485	821
336	6.83964	850
350	7.25447	858
364	7.66935	826
378	8.08427	798
392	8.49924	849
406	8.91426	869
420	9.32934	818
434	9.74447	818
448	10.1597	780
462	10.5749	790
476	10.9902	827
490	11.4056	780
504	11.8211	753
518	12.2366	808
532	12.6522	740
546	13.0678	752
560	13.4836	786
574	13.8994	737
588	14.3153	732
602	14.7313	714
616	15.1474	622
630	15.5636	683
644	15.9799	707
658	16.3962	651
672	16.8127	626
686	17.2293	659
700	17.6459	656
714	18.0627	661
728	18.4796	641
742	18.8966	606
756	19.3137	629
770	19.7309	589
784	20.1483	601
798	20.5657	578
812	20.9833	545
826	21.401	584
840	21.8189	503
854	22.2368	543
868	22.6549	567
882	23.0732	549
896	23.4916	564
910	23.9101	519
924	24.3288	489
938	24.7476	530
952	25.1665	521
966	25.5856	476
980	26.0049	467
994	26.4243	492
1008	26.8439	426
1022	27.2636	425
1036	27.6835	445
1050	28.1036	447
1064	28.5238	503
1078	28.9442	464
1092	29.3648	418
1106	29.7855	395
1120	30.2064	391
1134	30.6274	403
1148	31.0485	365
1162	31.4698	364
1176	31.8911	384
1190	32.3126	364
1204	32.7342	314
1218	33.1559	322
1232	33.5777	330
1246	33.9995	351
1260	34.4215	283
1274	34.8435	326
1288	35.2655	311
1302	35.6877	298
1316	36.1098	295
1330	36.532	286
1344	36.9542	289
1358	37.3765	254
1372	37.7987	256
1386	38.221	227
1400	38.6433	267
1414	39.0655	254
1428	39.4878	251
1442	39.91	447
1456	40.3322	3219
1470	40.7544	9769
1484	41.1765	762
1498	41.5986	307
1512	42.0206	211
1526	42.4426	246
1540	42.8645	220
1554	43.2863	215
1568	43.708	211
1582	44.1296	194
1596	44.5511	173
1610	44.9725	175
1624	45.3938	189
1638	45.815	171
1652	46.2361	179
1666	46.657	181
1680	47.0777	180
1694	47.4984	151
1708	47.9188	194
1722	48.3391	186
1736	48.7593	160
1750	49.1794	138
1764	49.5994	171
1778	50.0192	160
1792	50.439	162
1806	50.8587	152
1820	51.2783	147
1834	51.6979	154
1848	52.1174	147
1862	52.5369	167
1876	52.9563	147
1890	53.3758	154
1904	53.7952	136
1918	54.2146	132
1932	54.6341	128
1946	55.0535	142
1960	55.473	137
1974	55.8926	150
1988	56.3122	140
2002	56.7318	131
2016	57.1515	156
2030	57.5713	165
2044	57.9912	568
2058	58.4111	1627
2072	58.8311	872
2086	59.2511	189
2100	59.6713	127
2114	60.0915	103
2128	60.5118	107
2142	60.9322	100
2156	61.3526	104
2170	61.7732	107
2184	62.1938	100
2198	62.6145	99
2212	63.0354	90
2226	63.4563	109
2240	63.8773	97
2254	64.2984	83
2268	64.7196	94
2282	65.1409	107
2296	65.5624	105
2310	65.9839	92
2324	66.4055	99
2338	66.8273	90
2352	67.2492	96
2366	67.6712	101
2380	68.0933	96
2394	68.5155	98
2408	68.9378	104
2422	69.3603	111
2436	69.7829	96
2450	70.2056	112
2464	70.6284	117
2478	71.0512	100
2492	71.4741	119
2506	71.8971	127
2520	72.3201	200
2534	72.743	1149
2548	73.166	3673
2562	73.5889	2583
2576	74.0118	502
2590	74.4346	110
2604	74.8574	107
2618	75.2801	107
2632	75.7026	109
2646	76.1251	109
2660	76.5473	86
2674	76.9695	74
2688	77.3915	90
2702	77.8134	87
2716	78.2352	83
2730	78.6568	92
2744	79.0784	80
2758	79.4998	80
2772	79.9212	88
2786	80.3425	85
2800	80.7637	98
2814	81.1848	94
2828	81.6059	85
2842	82.027	83
2856	82.448	78
2870	82.869	92
2884	83.2899	74
2898	83.7109	94
2912	84.1318	102
2926	84.5528	63
2940	84.9737	92
2954	85.3947	93
2968	85.8157	120
2982	86.2367	234
2996	86.6578	970
3010	87.0789	1385
3024	87.5001	521
3038	87.9214	132
3052	88.3427	82
3066	88.7641	109
3080	89.1856	64
3094	89.6071	76
3108	90.0287	86
3122	90.4503	69
3136	90.8719	104
3150	91.2936	67
3164	91.7152	78
3178	92.1368	87
3192	92.5585	72
3206	92.9801	80
3220	93.4016	82
3234	93.8232	88
3248	94.2446	78
3262	94.666	83
3276	95.0874	82
3290	95.5086	84
3304	95.9298	87
3318	96.3509	91
3332	96.772	85
3346	97.193	84
3360	97.614	92
3374	98.035	84
3388	98.456	104
3402	98.8769	87
3416	99.2979	136
3430	99.7189	473
3444	100.14	1925
3458	100.561	2404
3472	100.982	937
3486	101.403	197
3500	101.824	112
3514	102.245	94
3528	102.667	84
3542	103.088	107
3556	103.509	111
3570	103.931	85
3584	104.353	70
3598	104.774	81
3612	105.196	101
3626	105.618	71
3640	106.04	94
3654	106.463	74
3668	106.885	84
3682	107.308	91
3696	107.73	105
3710	108.153	79
3724	108.576	92
3738	108.999	78
3752	109.423	89
3766	109.846	87
3780	110.269	110
3794	110.693	96
3808	111.116	73
3822	111.54	76
3836	111.964	91
3850	112.388	85
3864	112.811	94
3878	113.235	126
3892	113.659	189
3906	114.083	1003
3920	114.505	553
3934	114.928	1
3948	115.35	0
3962	115.773	1
3976	116.195	0
3990	116.618	1
4004	117.04	0
4018	117.462	0
4032	117.885	0
4046	118.307	0
4060	118.73	0
4074	119.152	0
4088	119.575	0
4095	119.786	130